Timestamp,Sample Index,AX,AY,AZ,GX,GY,GZ,MX,MY,MZ
1748945662.412877,263,9.70576988668504,-1.5677379499669453,-0.9566985806258388,-0.9413050827083351,-3.6691496088781506,1.9875500903767365,-3.6962091012100946,-3.528950013846722,-3.885768940442169
1748945662.5213804,264,10.057968784935309,-0.6720700804580384,-0.8483478329339902,25.18585916070953,-3.427801271670761,2.5600523389132,-4.780278893142018,-4.100036700863116,-4.389886138228384
1748945662.6294088,265,9.94425050121067,0.3725588186533926,-1.9225134847535883,20.90696967012842,-2.854273847781605,0.9234810275032334,-2.167344488854666,-2.426718313869631,-2.2571324554391707
1748945662.7391243,266,9.025568347575827,-1.8140929044097232,-1.5096956115995859,-35.83702156806914,7.509956111310048,-3.8812411853126263,-3.808159286217659,-3.966706493906736,-3.7229025236179094
1748945662.849407,267,9.992025130649457,-1.8014629167600087,-2.0372598947865517,-16.07942615164788,3.273693499288351,0.9185828451197489,-3.4731711313408944,-3.8904457637047587,-3.7994670679909763
1748945662.957673,268,10.112061583013695,1.3301966605589823,-1.3435759026400662,8.987410583216661,-2.437154529160162,2.117425341186074,-4.293901139374687,-4.1482801793876565,-4.112254063786393
1748945663.0650716,269,9.579356035306326,1.027677721913861,-1.9805505050908865,1.5839821298857006,-0.9784805167943583,0.39906593391417,-2.958702611046581,-3.2616983868676455,-2.835846470951465
1748945663.175063,270,9.541577051281193,0.8590780124682507,-1.8650746349024085,4.445563929378012,-0.06167066784871686,-0.1032243600918904,-4.08263509094624,-4.114948537270386,-4.599216459903117
1748945663.2863271,271,9.217111740084436,0.872897452126011,-1.507583462352097,2.3362988434954475,-1.9733529666681044,0.434730832007709,-2.8532995978931512,-2.817688868272639,-3.271374255932773
1748945663.3955498,272,9.434140267527964,0.9365182395782896,-1.6137819305384742,-9.443163373435523,2.7557715591173837,0.498141150114797,-2.6084157233889016,-2.934748566527582,-2.86247288610596
1748945663.5042043,273,9.887896049815398,1.3903906717781083,-1.8756358340691084,-3.958648434646744,0.5085214908913973,-0.9814810665892341,-4.49283816699208,-4.306203436426643,-4.44050141946863
1748945663.613292,274,9.309035590263527,1.2539024205929272,-1.4651685060667683,51.154354666904496,-11.585184335345437,2.607261533780013,-3.6691365230029565,-3.82183827026045,-3.3428402331179607
1748945663.7235553,275,9.094107983122369,-1.0977205023736445,-1.398707031710678,0.6855683532461746,0.5040370499837084,4.8460129690275515,-2.0740864437511046,-2.369299799640511,-2.2639699668690456
1748945663.8326497,276,9.91621273130278,-1.3388047136099819,-1.308918327536968,15.685252545042673,-1.045483110315447,6.760224073994555,-4.022146465701166,-4.508010798947957,-4.5555464089157915
1748945663.9427214,277,9.635760977624924,-2.2280960608933382,-0.6906214941067301,-25.78026702718171,9.039624448959303,-1.0364903526162725,3.387740331206414,2.7731327238452597,2.957633726142203
1748945664.0528333,278,10.021735332424216,-0.8600026239065226,-1.5723784198431638,7.6291415334459725,-5.147949373081275,-3.419096108981129,2.4391077489911495,2.989560183810269,2.4796470236424004
1748945664.1620038,279,9.37303357423372,-0.6681402251200418,-1.4778900368084185,-23.00530533847515,2.7412155836911736,-3.9251929271351607,-4.859277577772658,-4.816435849197801,-5.20140372133712
1748945664.2734869,280,9.081474701824819,0.5014994004828363,-2.0392714513294448,-34.55833538388642,1.8364067468272762,13.466470297649728,-4.124260510191871,-4.317866472153975,-4.844432721882044
1748945664.3836975,281,9.718780292086512,0.7944258861228224,-1.9188015856927572,18.465601018727263,-1.056007769966146,-1.484316420052084,-4.5473749422475045,-4.846237501919792,-4.978120919124984
1748945664.4926155,282,9.210728899349121,0.9341599807233477,-1.549573243634926,-18.20402259016761,1.8068112577131106,0.9048293416956139,-2.3851752635832772,-2.509003522711446,-2.268126467407465
1748945664.6002166,283,9.292245372786722,1.1175473426971694,-1.2637188211073878,25.20374592785336,-1.2754227939830387,2.759867054317139,-2.6723937468432943,-2.395739869255964,-2.582795556473554
1748945664.7093115,284,9.603215184729782,-1.1760577030860955,-1.8533209520422496,-25.910442687449052,3.878396850808236,-2.427238464517168,-3.960810218120334,-3.9675549829249075,-4.18912870062884
1748945664.817127,285,9.829030082648647,-1.3778673016043657,-1.9105481289770196,4.213762810412505,0.16531877818363594,0.4476470155554596,-3.553715856498572,-2.7665110976323226,-3.3854577484967447
1748945664.9249835,286,9.95164266588741,1.057643286592013,-1.8722273572574542,4.275313581364088,-2.7114135286128818,2.8791530980406064,-4.053241755502629,-3.9453114995080205,-4.10284251211556
1748945665.0359209,287,9.378753567022224,-0.9336558064160431,-1.666095772946296,10.266003487835732,2.6991879099544205,5.182201317810427,3.973957465683811,4.849993303336388,4.635379867868769
1748945665.1461987,288,9.219786938891923,-1.8263845639045364,-1.3822339406608366,5.17327896308521,1.3979275291683722,6.790305985249014,2.4490059533902286,3.0548338785921043,2.521652963602416
1748945665.2572773,289,9.875753115838531,-2.157573676877396,-1.5503058543019848,6.790153619000543,0.162698762787498,7.305182785137678,-0.9532488424484398,-1.125968211040886,-1.2455111907463658
1748945665.3666394,290,9.223188734044939,-2.1698989120595633,-1.1650153393222573,5.012584276674947,1.9652921240069547,5.925934760619981,-2.2363629304903996,-1.7225783609767942,-1.6213185115931703
1748945665.474779,291,9.45374933313299,-2.784687292449691,-1.5410598481610998,-1.5395892893639562,0.45287071782418653,4.013341161580876,-3.983648981591365,-3.8101711611931375,-4.536805000238515
1748945665.5846605,292,9.138058020046058,-1.8869885405010458,-1.2202645018257359,9.664224527190331,-1.334339071801105,9.924857907599284,-2.922467754355555,-3.446410507177429,-3.526315665946416
1748945665.6930673,293,8.644999216270541,-2.6976287352643498,-1.7975089401208597,-3.080099622278805,-2.059386812871032,0.3903813185831,-3.3154986327232914,-3.023890147777971,-2.8906075242505995
1748945665.8011906,294,9.43658374009222,-2.739761544752843,-2.241488970322827,-38.53767735161471,3.2687425896931104,3.921496039395186,-3.671746325108581,-3.8541125448859597,-3.240567387824028
1748945665.9107368,295,8.921922456463506,-2.5179927226713312,-1.687129842743277,6.9981095729683185,-3.6949228815320647,-0.028811000803757314,-3.8663157604293596,-3.5419676961057234,-3.972043659397489
1748945666.018989,296,9.394285043147278,-2.4085496558000994,-2.590354912317359,-2.5779436696467553,0.090856473597549,-2.199867920216656,-2.9309783463068593,-3.2001325466805124,-3.017783539033635
1748945666.128235,297,8.927938897034634,-2.6790348496668344,-1.73448962051862,-7.810713191432766,0.5418146133297588,-3.0407280463634128,-2.9038706198737434,-3.3027687364142038,-3.4565640036179004
1748945666.238272,298,8.998103480883033,-1.7913872480670234,-1.765624039518284,-8.012540382035489,1.3577755245347514,0.595157159267102,-2.0613830335129593,-1.7622431480945129,-1.7242715296772313
1748945666.3464427,299,9.824092106130333,-1.8715683280482622,-1.948590791167483,7.8459773962833665,1.1955238271294302,2.4622603572777537,-2.5786385757359653,-2.5699440783296432,-2.662082782213458
1748945666.4562643,300,8.879562265407921,-2.2946710150975966,-1.400868737219789,35.42534754403877,-7.1332027912716764,2.9302912664725778,-2.6962200064699537,-3.0734839189909855,-3.126897054259561
1748945666.5657675,301,9.172107625368119,-2.199840927041801,-2.170704827491753,0.6044958804121137,-0.34036877564596346,0.18118072392966017,-1.8499935627044115,-2.0039538971942434,-2.0539539632080874
1748945666.6739798,302,9.580777358377198,-2.145614256381638,-1.5142961751886381,-4.12102213653015,0.20561024868578692,-1.573613474606565,-2.5458218307083573,-2.4320823851956845,-2.244541906198659
1748945666.7818964,303,9.437622165565038,-2.477362118298713,-1.5900402695866442,0.7517590851619305,0.2392506640836899,0.7241920171948135,-1.698356863610485,-1.9021690651846064,-1.6315717961095964
1748945666.890753,304,9.129693089667018,-2.469074398201904,-1.5007148508261636,9.648682741010104,-1.5897693648769433,1.3297516065068118,-2.9668031963239163,-3.254012668064803,-3.369595379763428
1748945667.0018003,305,9.502902124338574,-2.5508862070442593,-1.780733786443491,5.677300344498562,-3.3660835670186833,0.9950174484005085,4.07447669499278,4.31451919291141,3.6397475097697667
1748945667.1118474,306,8.804119931511325,-2.4923226920784143,-1.9354548123801063,-4.131300386908285,1.8235577676719599,0.6897875657069856,-3.583032715990339,-3.546288462633274,-3.201807884535774
1748945667.2215033,307,8.908861929234268,-2.8389371259400633,-1.9066450226011438,-7.730622340588879,2.381449564265794,0.697454480115929,-4.5752481011658315,-4.949180514570096,-4.725514777312794
1748945667.329778,308,9.415198166272072,-1.9270768175747182,-1.675923226669036,4.0042758296709815,0.12385724176245266,0.3652651638616541,4.400998999888592,4.8279151711537125,4.3985408153614705
1748945667.4393945,309,9.353808048877427,-2.788826489935902,-1.7292803494191484,15.322870459055832,-5.179609493251566,0.8778138121734489,-3.384489880195656,-3.2967064437106064,-3.21065637723114
1748945667.547823,310,9.281347844517779,-2.5975335739416825,-1.5670389189844822,1.6193144711373797,0.8545767492160775,0.5272231757602839,-4.037389620807871,-3.611925807279477,-4.167149649677674
1748945667.6567643,311,9.20705018413366,-3.3218302224976037,-1.6510255535836027,20.296978464781652,-1.2535030801569547,3.8084160491150993,-3.6403657340130624,-3.2032703973184864,-2.9473974063548756
1748945667.7649589,312,9.19263491046457,-3.5725497586589166,-1.5217255312965552,-2.255886143046955,-3.9261343148256045,1.122933318648502,0.4224652746054315,-0.33225887695334166,0.6328964373115659
1748945667.873441,313,8.966103127681462,-2.4172603544972606,-2.199189729301827,13.973887694560704,-4.972016530830498,-1.430508576735444,0.19690414369330114,0.2226788360086677,0.2331959810860497
1748945667.9850712,314,8.329465798385186,-6.924523958567998,4.909055204517771,74.03249595808629,-28.30270868770412,-133.85700104824582,2.6175831925166166,2.499059520813381,2.6730067257608954
1748945668.094399,315,9.670296708807689,-0.13720609897575473,-1.7706113494078044,92.57391436840557,-26.239491908698085,-17.43980654000067,-1.8809339702201346,-1.439963615348923,-1.9759545699896677
1748945668.203648,316,5.513749838004012,2.2329179674457005,-4.120799137390469,-286.2181530255567,45.53607888889102,32.57408891622206,-2.5261519425310666,-3.1994571843226773,-2.854021434357347
1748945668.3129523,317,15.486350814182005,-11.488979499017788,-19.759637398722905,171.41661592338346,206.1476548191098,-80.93934301812173,3.8915563228513315,4.630153688343963,4.540884708578584
1748945668.4242315,318,11.914374747940867,0.5771474203724857,-4.173469077179893,61.3475196024312,-28.502307166521522,-32.623999274867316,3.4451163720643248,3.274563394395881,2.804329893730128
1748945668.5326145,319,8.740688005827561,0.5158151125410124,-4.582162043835886,157.72249663743648,-17.69351550579485,38.34792977204188,4.3895627832848785,4.90008737318351,4.933927031617362
1748945668.6424677,320,8.8451734775903,-3.6328274277388086,0.9159476154307047,112.59670574886508,46.80471417886015,49.74657503157283,-0.098574251237485,1.6943802045972425,1.6624549896901777
1748945668.751738,321,13.148307448537821,4.175029048885908,-1.8101448041120332,138.56691344797656,-44.680926642742484,-65.47382675425959,3.3066212172338805,3.9794302715592065,3.242041771570719
1748945668.8614273,322,10.02248925841485,-2.8225366346315086,0.6201295376644286,16.66301676675655,-88.70543292330393,35.44987761650751,0.6802707089203388,0.47226041991955675,0.5824398371244215
1748945668.9707265,323,3.8545565467604606,-2.8153422267381414,-8.043608458574722,-209.0412167023261,-286.5638697132584,10.833729751047457,-3.39330576768721,-3.576514841259073,-3.5578997847002003
1748945669.081533,324,0.20751702507509295,0.6264807825400647,-14.564017364941916,16.76306367475414,-145.82899361850306,-87.47184117440057,-4.33579187789865,-4.783233933117217,-4.2109457064574976
1748945669.1890662,325,-2.4838432264739545,-1.90745877618917,-9.698585905028962,1.9325197067751116,-66.88184399217303,-13.996893939405556,-1.5784683561689286,-1.267119920443622,-1.2362701732610992
1748945669.2995543,326,-3.0287991615926058,3.37664889921735,-9.546123446138717,-80.76810441802657,23.493780597228668,-45.98407932205938,3.9368582911977086,3.5895790753643593,4.360383953401544
1748945669.4070787,327,-4.578114611084027,0.6086455482847049,-9.785593115440944,8.739109911503636,74.43741656347318,-21.336231553340266,-1.9159147777530328,-1.7819362733086503,-1.5679695631069461
1748945669.5153227,328,-3.347928193015763,-1.3160092987737189,-9.310512119029081,-148.05905730740685,-52.165792573497356,-98.53230867238456,0.9430498046451161,0.9411639305579464,0.3262858584747421
1748945669.6243007,329,-10.567004607148387,0.3097959767560199,-4.539780102679964,175.97381303616018,-287.14017142032935,122.33297239223104,-3.641052778482199,-3.6300762623102294,-3.043051144768757
1748945669.7330484,330,-11.85922357385445,3.6889535113607703,2.2667434007122105,-45.901987359841584,107.05237994595852,56.4978211147527,0.43169084715992695,0.14694351031997382,-0.03266399538811432
1748945669.841972,331,-15.74574899862293,8.043384682450807,1.3454405530257307,-70.07312263868704,-286.3652557362807,55.27056240496155,3.2730275881734165,2.9835023168587362,3.14835133552391
1748945669.9497645,332,-7.266471047423297,8.16027695481674,-5.268456740406419,35.20772252899619,36.873964608251946,-69.72892939153743,3.502715484291467,3.549037383256373,3.5218787641560914
1748945670.058252,333,-6.084364067073576,4.645761456273659,-8.927937765131487,42.422048823054936,-24.75978913736966,55.47299281983601,-4.104822185005922,-3.67791163822083,-3.615809718949606
1748945670.168401,334,-2.33264816203037,3.9427522299920663,-8.055566114782563,50.04528694762925,65.3885890917667,180.78225620205976,-2.4582186614673236,-2.5596437606316584,-2.8095838820589787
1748945670.2790763,335,3.1045513763519414,1.4276591904411469,-1.281443270119416,110.31822816559149,167.94187178916474,149.01248868470998,-3.626190180993947,-3.3430691356882645,-3.423515637362572
1748945670.38625,336,0.19388797649597855,4.0970589565239255,-10.122169806004383,-247.82162030684273,-233.30077286514796,261.4348516307716,-2.74299115797505,-2.495615012232567,-2.90776553567851