Timestamp,Sample Index,AX,AY,AZ,GX,GY,GZ,MX,MY,MZ
1748945662.412877,263,9.451051786788948,-1.6093029539769432,-1.60934426102948,-1.5715323631106175,-3.4757891484261876,1.6411091482149833,-3.846470970254126,-3.27355332332219,-3.9074785476305833
1748945662.5213804,264,9.329649540391257,-0.8322772055583365,-1.6810403609362319,25.74208018086363,-3.7767979921409656,2.2144147183950476,-4.642503180990282,-3.8628119474351306,-4.760291159576627
1748945662.6294088,265,9.762338936385282,0.9612333540730711,-1.729690030203279,20.86177728991971,-2.8473890957185035,0.35694646536685226,-2.3290241757278762,-2.266066884947304,-2.4237482455502812
1748945662.7391243,266,9.691121861047378,-1.3155674116356755,-1.3348536630056231,-35.69914422516816,7.6271037252850675,-3.6536983044192577,-3.972618078896091,-4.457122589893386,-4.05435435530519
1748945662.849407,267,10.002689625423262,-1.376963182087311,-1.625896484069454,-15.788186827369824,2.751795460199598,0.3214968006035113,-4.040723722421599,-3.6009374394081797,-3.722590048446749
1748945662.957673,268,9.88599725381306,1.095832534303816,-1.8473135320768415,8.16899691215781,-2.679005111425534,1.8733183911429752,-4.805256583594669,-4.204341479151487,-4.150194009246559
1748945663.0650716,269,9.955190737060862,0.7181586767518174,-1.7176538611234762,1.6705014280268933,-0.9084670958952997,-0.04674246260009943,-3.66681891115733,-3.1694213523663124,-3.2489141409307027
1748945663.175063,270,9.662214082803144,1.0087276197055197,-1.4204445724244295,4.333937641077932,0.4091355848175141,-0.005872312847469585,-4.337349029636478,-4.548044272971493,-4.412795157053328
1748945663.2863271,271,9.343469672521604,0.5526955065980748,-1.1015649609210052,2.5866646501197983,-1.2982521828779487,1.0562742584451426,-3.507790259257061,-2.9089928920833077,-3.5008117790469564
1748945663.3955498,272,9.311561321578177,1.138890208781128,-1.7773440613509608,-9.855096327682737,2.6966185954884305,0.45063638881987256,-2.6327895124777343,-2.8830924203752746,-2.9796561461643964
1748945663.5042043,273,9.403315086311286,0.49925881469567124,-1.6583378870067897,-4.441229796716955,0.34006140123437595,-1.4775117777897835,-4.2983956655484885,-4.602685921269025,-4.631923942489395
1748945663.613292,274,9.581652061622874,0.9070883417824869,-1.285873719222983,51.45781436937415,-11.453822003141777,2.4084173015733237,-3.8610221079882057,-3.3118707708614092,-3.7786854701853305
1748945663.7235553,275,9.262349107039922,-1.3793544507509163,-1.738099413823917,0.0510201915148607,0.09792625818044376,4.555017230883076,-2.039933775092816,-2.632487477570658,-2.0993612095248144
1748945663.8326497,276,9.64782849733771,-1.3551178755648408,-1.7774483516932462,15.089406422461266,-1.564261070304792,7.343761304642369,-4.389612431095992,-4.330233205632024,-4.0056486483313005
1748945663.9427214,277,9.944974352423243,-1.3933978302740158,-1.2314124816977636,-25.17666273270353,9.328112462316689,-0.860439966046348,3.2842189639783443,3.073175635489014,3.719145688429441
1748945664.0528333,278,9.735363801148944,-1.4130041701528095,-1.4230708450949971,7.749085598912295,-5.078615563096839,-3.271068766565689,2.497308258034356,2.2734049418117053,2.236070872595759
1748945664.1620038,279,9.80455588471067,-0.6998180589251395,-1.3983225565477122,-23.344313051177124,2.330536677864033,-3.9143484257065513,-4.372970543068011,-4.713080965240914,-5.133019913013693
1748945664.2734869,280,9.65044396804026,0.5811441525280312,-1.7063672147697813,-34.13938209186376,1.9771306811900717,13.568248707020885,-4.909914825186868,-4.909337169026274,-4.355321560879072
1748945664.3836975,281,9.666719156877269,1.151777059714425,-1.9726492809096605,19.38608820151296,-0.9880603034112,-1.2724465838716656,-4.414384432425366,-4.333004729359073,-4.850857618334629
1748945664.4926155,282,9.449306725505595,1.3619177605655064,-1.7345055641947613,-18.143077347027482,1.7420442827354328,0.7283979900262616,-2.975237139176217,-2.631109910798461,-2.6437477553602147
1748945664.6002166,283,9.260197622554143,1.04205377042357,-1.4020564667310316,25.061924162331497,-2.140134790904649,3.3409150341444684,-2.5009922942837686,-2.2375889640970654,-2.36066193154938
1748945664.7093115,284,9.240593408929028,-1.853630902168844,-1.9263166166206802,-25.411225193115662,3.7442185149994964,-2.3452920756770026,-4.188392279588567,-4.171071669665045,-4.11391890914388
1748945664.817127,285,9.67355928261988,-2.0811575239539195,-1.742199285475046,5.029133228871265,0.4152181708337377,0.2526379476094972,-3.293210477510484,-3.5890753863867566,-2.8274126956183077
1748945664.9249835,286,9.178859784590294,1.3250125691511792,-2.0737551363114206,3.542449523867261,-2.5622380898876846,3.5329775104721834,-3.462004968349325,-4.06351325181545,-3.491330194698733
1748945665.0359209,287,9.33988217409157,-0.7516942434363235,-2.0425973120362,11.07985230162793,2.5849980588246897,5.608953962151333,4.1028453271854355,4.039127033674627,4.152583028806653
1748945665.1461987,288,9.773115183611974,-2.1228678089535125,-1.7626647019240704,5.380766289544005,0.7005344448857478,6.603987620815118,3.0198860128840694,2.753501913200837,2.5037060565313407
1748945665.2572773,289,9.414286349052933,-2.018191964584225,-1.6946326223804486,7.203149736570259,0.4649124973428422,7.852517676184848,-1.4194342806218598,-1.104091507710062,-1.5035341770382082
1748945665.3666394,290,9.09062725715769,-1.8203738889035268,-1.58602218471256,4.942159078556181,1.226044190088727,5.954900010074369,-2.349315253386222,-2.0292045617416785,-2.0885860706485593
1748945665.474779,291,9.457970926108555,-2.5317911471708734,-1.6725092025632513,-0.9670800215766128,1.005517215334446,4.266991014868302,-4.221878434590122,-4.360262874898222,-4.1297235919124295
1748945665.5846605,292,10.043280377685212,-2.6030850113743966,-1.251030957663635,9.556691750853108,-1.267039623036104,9.70820109115963,-3.15745230465244,-2.68977481407036,-3.4911971953355683
1748945665.6930673,293,9.081193211786688,-3.085137259490773,-1.472260884327392,-3.484780487002374,-2.4655484955036906,-0.14121105410635348,-3.403309336692545,-2.969810409120542,-3.1088867858946223
1748945665.8011906,294,9.512215689858056,-2.7836804643136586,-2.317538594467294,-39.05866649172165,3.3595291816564536,3.8934833405473555,-3.265167750802812,-3.736727175982573,-3.6194485789195676
1748945665.9107368,295,8.919711483553279,-2.507745380801717,-1.3588724097101261,7.369176882813376,-3.621583566490333,0.05176127654673279,-3.7901372209035333,-4.035983116013567,-3.8365471805759457
1748945666.018989,296,8.930940904223782,-2.3125142331837587,-2.4521438406175484,-2.5876039616522335,0.4416421975417666,-2.0273216680487027,-2.967486129865439,-2.6084487803257943,-2.611652992525594
1748945666.128235,297,9.076542387967358,-2.2771702300858068,-2.1285714868978167,-7.567474570117312,1.0364657018928822,-3.21115649501746,-3.607020763818466,-3.4036964810524477,-2.9612592317637816
1748945666.238272,298,9.409145918104453,-1.9222991401676588,-1.4950643694199566,-7.993987621755303,1.4762595564764995,0.4093216777679741,-2.1069609357246577,-1.8796123609513011,-2.1726099313825107
1748945666.3464427,299,9.269462003017535,-1.7891674585722468,-2.080612040123661,8.595639410235272,0.5075036645764642,2.420113821160584,-2.639284359027708,-2.428400016802455,-2.423123130050552
1748945666.4562643,300,9.472714220272476,-2.184911527709289,-1.266107298636455,35.409086596867766,-7.271119796716855,3.2774943774936722,-3.013477459750335,-3.437054754161144,-3.224326792013788
1748945666.5657675,301,9.616339651317006,-2.882122069160931,-1.7683923177608643,0.12443535159634095,0.08548852776310087,-0.3830494218674058,-1.5607533573158134,-2.1504802322396985,-2.034750006462865
1748945666.6739798,302,9.284707182432188,-2.4487840271215346,-1.9957666858425887,-4.40260118253406,0.7974633762087945,-1.8644017728960145,-1.7301708087621546,-1.930708020333308,-2.5030706181272677
1748945666.7818964,303,9.446958259000336,-2.8940283202971835,-1.8078919069217156,1.1552479773334086,0.3546897885585143,0.8377613488273158,-1.6283640424317938,-2.1850054801493624,-1.8127776883479636
1748945666.890753,304,9.780357778906057,-1.9266813249822317,-1.9711402318041062,9.027223721125953,-1.000735269004866,0.9549685817018649,-3.278925912925314,-3.318474925511425,-3.1827794281570903
1748945667.0018003,305,9.25714976241847,-2.2022322718987,-2.0443440370969266,5.839353167552117,-3.5204031767937227,0.2973691330940931,3.441759245274871,3.4750783571876855,3.626417849746463
1748945667.1118474,306,9.584350751535517,-2.6555146476222444,-1.4373983249756561,-4.19818005336987,1.85936424788928,0.6679575895032929,-3.0431443894405423,-3.2255837243580325,-3.4212628737308792
1748945667.2215033,307,8.922846102231894,-2.915812883520799,-1.8611719349828326,-7.820808547954229,2.363311615670716,0.2221838423284856,-4.251553113371337,-4.739877384562405,-4.0861869084197915
1748945667.329778,308,9.517180473863515,-2.827418062112397,-1.25284900040233,3.4207409624159335,0.4948659945357346,0.06410410927377,4.097831087895024,4.472654622201506,4.176317422184075
1748945667.4393945,309,9.00448977740935,-2.3260229323621218,-1.4145043180873917,15.312443150562379,-5.433149627655739,0.9261455186815144,-3.3917892901799482,-3.2703685223442642,-4.063142571127074
1748945667.547823,310,8.823968660384521,-2.5657161852723855,-1.335922585970428,1.5436472983948952,0.7291572328042643,-0.0920115019652864,-3.5628591774124416,-3.5569149236330846,-4.043216770386769
1748945667.6567643,311,9.291518956210794,-2.503829420711576,-2.1063378826116885,20.19786420779473,-1.5723600635410144,3.849970964559941,-3.162360345922062,-3.506086102637297,-2.947518751700877
1748945667.7649589,312,8.894947489192987,-3.4637371500598344,-1.0517271382259687,-3.019470044535196,-3.9624480300700835,0.9551043039150164,0.4074849396370037,-0.07168688092002931,0.1106969080972928
1748945667.873441,313,9.148597281275073,-2.4072539937198614,-2.2356589758255745,13.0219835825647,-4.599870463163778,-0.9184916035532015,0.014133998785922725,-0.20838960287324335,0.1991390771892795
1748945667.9850712,314,7.714863207351223,-7.221524772015684,4.421319531350338,73.74288648261388,-29.045566265291555,-133.3688204604362,2.625614260207776,2.802020280494143,2.834103136389791
1748945668.094399,315,9.379522080653604,-0.35127415501679193,-1.8159860148446483,92.64658090383999,-26.289005709653836,-18.021718931613403,-1.8364026888440352,-1.7985693063573942,-1.4298642362206362
1748945668.203648,316,5.134007582123718,2.3100110747758325,-4.816611020344214,-286.3126706052659,45.840884290328276,32.70506706072222,-3.087969863621453,-2.6762710333156576,-2.6605962470693396
1748945668.3129523,317,15.639297617893874,-11.573074244313553,-19.115997010443397,171.47396792943024,206.04933686415453,-80.81672016310749,4.621078305571883,4.427426577840905,4.350843694479381
1748945668.4242315,318,11.458388657788863,0.031101080212854293,-3.653505148506451,61.59430270611916,-29.164562277340508,-32.54983086801842,2.7374858938471376,3.3888662243004335,3.1367868039127758
1748945668.5326145,319,8.896821790120944,0.2840695438931736,-3.8960443521695614,157.3605473351653,-17.632938639103916,38.59123168331586,4.320584137397576,4.396492674965235,4.401202696494185
1748945668.6424677,320,8.812628945908363,-3.308519685256025,0.24594463225866547,112.88439106494445,46.52617017501531,49.90348257972526,0.601534139941478,1.8227078268764592,1.9386847461891268
1748945668.751738,321,13.736257059172335,4.084693986140386,-1.7257783750997304,138.859625007295,-45.3305517777934,-65.70353952719088,3.6492379310990937,3.672857987564882,3.4920703834668236
1748945668.8614273,322,9.827428358531751,-3.0879731916727913,0.6746386903514616,16.76949867947158,-88.01646259799955,36.288765405210654,0.41914421677661334,0.8565740680778475,0.9008080517271095
1748945668.9707265,323,3.8183169275324436,-2.9288287760519776,-7.983281336109776,-208.97946381836482,-286.76435943073255,10.284346880170155,-4.0852375339674065,-3.6643523048751843,-3.8726779371909457
1748945669.081533,324,0.3789926159775173,0.36126580280165005,-14.260775522722668,17.039325531042994,-145.38768661390696,-87.42886454600536,-4.893009196948073,-4.698982038969017,-4.440341719799021
1748945669.1890662,325,-2.8033335075488335,-1.9033509824879646,-9.188970270201409,2.101060909634308,-66.81805679056416,-14.103064903424423,-1.0779868681183116,-1.426693484600428,-1.5786103420063484
1748945669.2995543,326,-3.170165094895918,3.5591565803514285,-9.617698856835862,-80.83261500978153,23.043278158716088,-45.70079675249771,3.5505515911541115,3.8328387184178654,3.882528185215511
1748945669.4070787,327,-4.333194898273198,0.8418886501200122,-10.002744604111314,8.226567571601468,74.53633059752865,-20.844833550628728,-1.5466976105819707,-1.8833727256851405,-2.1432786247144318
1748945669.5153227,328,-3.5397986405992006,-1.4132718044821397,-9.459541536058632,-148.0498444792692,-52.108416616437644,-98.67990293178282,0.9238440777819228,0.2181517610456255,0.978485691839398
1748945669.6243007,329,-10.637065335899868,0.3128422390305612,-3.68807285413006,175.9950349359926,-286.86345371422607,122.1144303689783,-3.7017287767691642,-2.9413386258337115,-2.8024036498290275
1748945669.7330484,330,-12.407455295092555,2.9228653005276963,1.38400094522583,-46.189803677829985,107.72900214018236,56.799379429265066,0.2173571124387797,-0.0629968823326113,0.47308059345324344
1748945669.841972,331,-15.235867165300695,8.386000986202145,1.4702090357261541,-70.25767228873244,-286.5646637824662,54.77920010034516,2.7373764795665263,3.5305762301202095,2.849251012196763
1748945669.9497645,332,-7.125306811537659,8.754380243782016,-5.121356963024974,34.377351354083,36.91847416040592,-69.3345500565323,3.3483138033434576,3.6149362553617337,3.757118004135034
1748945670.058252,333,-6.348585665573271,5.258800464568846,-8.169840285410682,42.254173767033365,-24.88472056051257,55.403369864915916,-3.3909268829974906,-3.9836896791927403,-4.198613056603712
1748945670.168401,334,-2.8163022556779165,3.7773214709890666,-8.48058154307418,50.14678637110427,65.46914886199404,179.99804355605804,-2.3270204938221255,-3.194919542065734,-2.5486209597179106
1748945670.2790763,335,3.5326178188247344,1.8019865550504448,-1.6994717940912065,110.33423795340575,167.68454561046002,148.93908446206586,-2.8345368186881474,-2.8460043608584047,-3.4792739788003377
1748945670.38625,336,-0.3576088904713137,4.718741365596534,-10.214490289646617,-247.50667462213048,-233.69753729667778,261.51468340753695,-2.444537659248216,-2.6487973262577107,-2.810867374854798